# wn[cm-1] real imag
4503.04 1.29003 3.5000e-04
4495.33 1.28973 3.5000e-04
4487.61 1.28940 3.7000e-04
4479.91 1.28909 3.8000e-04
4472.19 1.28876 4.1000e-04
4464.47 1.28844 4.3000e-04
4456.77 1.28810 4.6000e-04
4449.05 1.28778 5.1000e-04
4441.33 1.28745 5.5000e-04
4433.63 1.28713 5.9000e-04
4425.90 1.28679 6.3000e-04
4418.19 1.28648 6.7000e-04
4410.47 1.28615 7.1000e-04
4402.77 1.28583 7.5000e-04
4395.04 1.28549 7.8000e-04
4387.33 1.28516 8.1000e-04
4379.63 1.28482 8.4000e-04
4371.91 1.28447 8.7000e-04
4364.18 1.28411 9.0000e-04
4356.48 1.28376 9.4000e-04
4348.77 1.28339 9.7000e-04
4341.05 1.28303 1.0100e-03
4333.34 1.28266 1.0500e-03
4325.61 1.28229 1.0800e-03
4317.90 1.28191 1.1300e-03
4310.20 1.28156 1.1600e-03
4302.48 1.28117 1.1800e-03
4294.76 1.28080 1.2100e-03
4287.04 1.28040 1.2200e-03
4279.34 1.28001 1.2400e-03
4271.62 1.27961 1.2400e-03
4263.90 1.27918 1.2400e-03
4256.19 1.27874 1.2500e-03
4248.49 1.27830 1.2600e-03
4240.77 1.27783 1.2700e-03
4233.06 1.27737 1.2900e-03
4225.35 1.27689 1.3000e-03
4217.63 1.27641 1.3300e-03
4209.91 1.27591 1.3600e-03
4202.19 1.27543 1.3900e-03
4194.49 1.27493 1.4000e-03
4186.76 1.27440 1.4200e-03
4179.05 1.27387 1.4500e-03
4171.34 1.27334 1.4800e-03
4163.63 1.27280 1.5100e-03
4155.91 1.27225 1.5400e-03
4148.21 1.27170 1.5600e-03
4140.48 1.27112 1.5700e-03
4132.78 1.27052 1.5900e-03
4125.06 1.26991 1.6200e-03
4117.34 1.26929 1.6500e-03
4109.63 1.26866 1.6800e-03
4101.91 1.26801 1.7100e-03
4094.20 1.26736 1.7500e-03
4086.49 1.26668 1.7800e-03
4078.77 1.26599 1.8200e-03
4071.06 1.26529 1.8600e-03
4063.34 1.26456 1.9100e-03
4055.63 1.26383 1.9700e-03
4047.91 1.26309 2.0300e-03
4040.21 1.26235 2.1000e-03
4032.49 1.26159 2.1600e-03
4024.78 1.26083 2.2300e-03
4017.06 1.26008 2.2700e-03
4009.35 1.25929 2.3000e-03
4001.63 1.25850 2.3200e-03
3993.91 1.25767 2.3100e-03
3986.21 1.25682 2.2900e-03
3978.48 1.25591 2.2600e-03
3970.78 1.25499 2.2200e-03
3963.06 1.25402 2.1700e-03
3955.35 1.25302 2.1100e-03
3947.64 1.25195 2.0500e-03
3939.92 1.25085 1.9900e-03
3932.21 1.24968 1.9300e-03
3924.49 1.24848 1.8800e-03
3916.78 1.24722 1.8300e-03
3909.06 1.24591 1.7800e-03
3901.36 1.24453 1.7500e-03
3893.64 1.24311 1.7400e-03
3885.92 1.24163 1.7400e-03
3878.21 1.24012 1.7500e-03
3870.49 1.23853 1.7500e-03
3862.78 1.23689 1.7500e-03
3855.06 1.23514 1.7500e-03
3847.35 1.23329 1.7800e-03
3839.64 1.23133 1.8700e-03
3831.93 1.22933 2.0300e-03
3824.21 1.22726 2.2500e-03
3816.50 1.22520 2.4800e-03
3808.78 1.22305 2.7100e-03
3801.07 1.22086 2.9200e-03
3793.35 1.21854 3.1000e-03
3785.64 1.21612 3.2600e-03
3777.93 1.21352 3.4000e-03
3770.21 1.21074 3.5400e-03
3762.50 1.20774 3.6800e-03
3754.78 1.20449 3.8500e-03
3747.07 1.20095 4.0800e-03
3739.35 1.19706 4.4100e-03
3731.65 1.19282 4.9000e-03
3723.92 1.18814 5.6600e-03
3716.21 1.18309 6.7800e-03
3708.50 1.17766 8.3800e-03
3700.78 1.17193 1.0570e-02
3693.08 1.16606 1.3440e-02
3685.36 1.16010 1.7050e-02
3677.65 1.15431 2.1390e-02
3669.93 1.14872 2.6410e-02
3662.21 1.14355 3.2040e-02
3654.50 1.13892 3.8130e-02
3646.79 1.13471 4.4520e-02
3639.08 1.13109 5.1030e-02
3631.36 1.12765 5.7540e-02
3623.65 1.12448 6.4040e-02
3615.93 1.12112 7.0650e-02
3608.22 1.11786 7.7540e-02
3600.50 1.11436 8.4870e-02
3592.79 1.11115 9.2780e-02
3585.08 1.10790 1.0135e-01
3577.37 1.10543 1.1059e-01
3569.64 1.10281 1.2045e-01
3561.94 1.10167 1.3086e-01
3554.22 1.10053 1.4172e-01
3546.50 1.10052 1.5291e-01
3538.80 1.10151 1.6432e-01
3531.09 1.10339 1.7588e-01
3523.36 1.10519 1.8749e-01
3515.66 1.10909 1.9910e-01
3507.94 1.11270 2.1066e-01
3500.22 1.11779 2.2209e-01
3492.51 1.12344 2.3336e-01
3484.79 1.12956 2.4442e-01
3477.09 1.13731 2.5528e-01
3469.37 1.14473 2.6587e-01
3461.66 1.15391 2.7611e-01
3453.95 1.16366 2.8585e-01
3446.23 1.17427 2.9497e-01
3438.52 1.18556 3.0341e-01
3430.80 1.19759 3.1110e-01
3423.09 1.21025 3.1797e-01
3415.37 1.22357 3.2389e-01
3407.65 1.23741 3.2871e-01
3399.94 1.25137 3.3232e-01
3392.23 1.26657 3.3463e-01
3384.52 1.28073 3.3564e-01
3376.80 1.29489 3.3536e-01
3369.09 1.30891 3.3391e-01
3361.37 1.32127 3.3141e-01
3353.66 1.33393 3.2808e-01
3345.95 1.34579 3.2412e-01
3338.23 1.35609 3.1974e-01
3330.51 1.36598 3.1514e-01
3322.80 1.37522 3.1042e-01
3315.09 1.38429 3.0568e-01
3307.37 1.39199 3.0095e-01
3299.67 1.40088 2.9624e-01
3291.94 1.40775 2.9153e-01
3284.23 1.41593 2.8679e-01
3276.52 1.42314 2.8196e-01
3268.81 1.43084 2.7698e-01
3261.09 1.43787 2.7181e-01
3253.38 1.44533 2.6640e-01
3245.66 1.45219 2.6069e-01
3237.94 1.45919 2.5465e-01
3230.24 1.46625 2.4824e-01
3222.52 1.47283 2.4147e-01
3214.80 1.47888 2.3432e-01
3207.09 1.48505 2.2675e-01
3199.38 1.49039 2.1879e-01
3191.67 1.49566 2.1047e-01
3183.95 1.50016 2.0186e-01
3176.24 1.50402 1.9301e-01
3168.52 1.50711 1.8400e-01
3160.81 1.50988 1.7491e-01
3153.09 1.51186 1.6585e-01
3145.38 1.51309 1.5687e-01
3137.67 1.51420 1.4802e-01
3129.95 1.51419 1.3933e-01
3122.24 1.51410 1.3083e-01
3114.53 1.51331 1.2257e-01
3106.82 1.51217 1.1464e-01
3099.09 1.51028 1.0706e-01
3091.38 1.50838 9.9890e-02
3083.67 1.50612 9.3100e-02
3075.96 1.50374 8.6670e-02
3068.24 1.50094 8.0570e-02
3060.53 1.49829 7.4770e-02
3052.81 1.49522 6.9270e-02
3045.09 1.49209 6.4090e-02
3037.38 1.48881 5.9240e-02
3029.67 1.48547 5.4750e-02
3021.96 1.48210 5.0570e-02
3014.25 1.47863 4.6710e-02
3006.53 1.47520 4.3140e-02
2998.82 1.47173 3.9870e-02
2991.10 1.46836 3.6850e-02
2983.38 1.46497 3.4080e-02
2975.68 1.46177 3.1520e-02
2967.96 1.45849 2.9180e-02
2960.24 1.45535 2.7040e-02
2952.54 1.45235 2.5070e-02
2944.81 1.44933 2.3260e-02
2937.10 1.44649 2.1590e-02
2929.39 1.44374 2.0020e-02
2921.68 1.44108 1.8550e-02
2913.97 1.43848 1.7140e-02
2906.25 1.43593 1.5790e-02
2898.53 1.43340 1.4520e-02
2890.82 1.43089 1.3330e-02
2883.11 1.42844 1.2250e-02
2875.39 1.42600 1.1260e-02
2867.68 1.42362 1.0380e-02
2859.96 1.42131 9.6000e-03
2852.25 1.41906 8.9000e-03
2844.54 1.41691 8.2600e-03
2836.82 1.41479 7.6800e-03
2829.11 1.41275 7.1600e-03
2821.39 1.41075 6.7000e-03
2813.68 1.40884 6.2800e-03
2805.96 1.40697 5.8900e-03
2798.25 1.40516 5.5500e-03
2790.54 1.40339 5.2600e-03
2782.83 1.40170 5.0000e-03
2775.11 1.40005 4.7700e-03
2767.39 1.39847 4.5500e-03
2759.68 1.39692 4.3500e-03
2751.97 1.39543 4.1700e-03
2744.25 1.39396 4.0100e-03
2736.54 1.39255 3.8600e-03
2728.83 1.39116 3.7200e-03
2721.11 1.38982 3.5900e-03
2713.40 1.38847 3.4700e-03
2705.69 1.38719 3.3700e-03
2697.97 1.38591 3.2800e-03
2690.25 1.38467 3.2000e-03
2682.54 1.38344 3.1400e-03
2674.83 1.38225 3.0800e-03
2667.11 1.38106 3.0400e-03
2659.40 1.37991 3.0100e-03
2651.68 1.37876 2.9900e-03
2643.97 1.37765 2.9900e-03
2636.25 1.37653 3.0000e-03
2628.54 1.37547 3.0300e-03
2620.83 1.37439 3.0700e-03
2613.12 1.37336 3.1200e-03
2605.40 1.37233 3.1900e-03
2597.69 1.37133 3.2800e-03
2589.98 1.37035 3.3800e-03
2582.26 1.36941 3.4900e-03
2574.55 1.36847 3.6100e-03
2566.83 1.36758 3.7300e-03
2559.12 1.36667 3.8700e-03
2551.40 1.36583 4.0000e-03
2543.69 1.36497 4.1500e-03
2535.97 1.36417 4.3000e-03
2528.26 1.36335 4.4400e-03
2520.55 1.36259 4.5900e-03
2512.83 1.36180 4.7300e-03
2505.12 1.36106 4.8800e-03
2497.40 1.36031 5.0200e-03
2489.69 1.35960 5.1600e-03
2481.97 1.35886 5.3000e-03
2474.26 1.35816 5.4400e-03
2466.55 1.35743 5.5800e-03
2458.83 1.35674 5.7200e-03
2451.12 1.35602 5.8600e-03
2443.41 1.35533 6.0200e-03
2435.69 1.35460 6.1900e-03
2427.98 1.35392 6.3800e-03
2420.26 1.35322 6.5900e-03
2412.55 1.35257 6.8100e-03
2404.84 1.35191 7.0300e-03
2397.12 1.35129 7.2600e-03
2389.41 1.35066 7.4900e-03
2381.70 1.35006 7.7400e-03
2373.98 1.34947 7.9800e-03
2366.27 1.34891 8.2200e-03
2358.55 1.34833 8.4500e-03
2350.84 1.34779 8.6700e-03
2343.13 1.34721 8.9000e-03
2335.41 1.34665 9.1400e-03
2327.70 1.34606 9.4000e-03
2319.99 1.34552 9.6800e-03
2312.27 1.34495 9.9700e-03
2304.56 1.34442 1.0290e-02
2296.84 1.34389 1.0620e-02
2289.13 1.34339 1.0970e-02
2281.41 1.34291 1.1340e-02
2273.70 1.34248 1.1710e-02
2265.99 1.34204 1.2090e-02
2258.27 1.34167 1.2480e-02
2250.56 1.34127 1.2880e-02
2242.85 1.34097 1.3290e-02
2235.13 1.34065 1.3700e-02
2227.41 1.34041 1.4120e-02
2219.70 1.34019 1.4520e-02
2211.99 1.34006 1.4910e-02
2204.27 1.33993 1.5260e-02
2196.56 1.33988 1.5580e-02
2188.84 1.33981 1.5850e-02
2181.13 1.33981 1.6090e-02
2173.42 1.33978 1.6290e-02
2165.70 1.33981 1.6450e-02
2157.99 1.33985 1.6560e-02
2150.27 1.33991 1.6610e-02
2142.56 1.33995 1.6610e-02
2134.85 1.34003 1.6550e-02
2127.13 1.34005 1.6420e-02
2119.42 1.34010 1.6220e-02
2111.71 1.34005 1.5970e-02
2103.99 1.34002 1.5660e-02
2096.28 1.33989 1.5300e-02
2088.56 1.33973 1.4910e-02
2080.85 1.33948 1.4490e-02
2073.14 1.33921 1.4050e-02
2065.42 1.33884 1.3590e-02
2057.71 1.33841 1.3140e-02
2050.00 1.33794 1.2690e-02
2042.28 1.33741 1.2230e-02
2034.57 1.33680 1.1790e-02
2026.85 1.33616 1.1370e-02
2019.14 1.33543 1.0970e-02
2011.42 1.33470 1.0600e-02
2003.71 1.33389 1.0260e-02
1996.00 1.33308 9.9500e-03
1988.28 1.33219 9.6600e-03
1980.57 1.33131 9.4100e-03
1972.85 1.33036 9.1800e-03
1965.14 1.32943 8.9800e-03
1957.43 1.32841 8.8000e-03
1949.71 1.32740 8.6600e-03
1942.00 1.32633 8.5400e-03
1934.28 1.32526 8.4600e-03
1926.57 1.32413 8.4200e-03
1918.86 1.32301 8.4000e-03
1911.14 1.32183 8.4200e-03
1903.43 1.32067 8.4700e-03
1895.71 1.31945 8.5300e-03
1888.00 1.31824 8.6100e-03
1880.29 1.31695 8.7100e-03
1872.57 1.31566 8.8300e-03
1864.86 1.31428 8.9600e-03
1857.14 1.31288 9.1200e-03
1849.43 1.31138 9.3100e-03
1841.72 1.30984 9.5100e-03
1834.00 1.30817 9.7300e-03
1826.29 1.30640 1.0000e-02
1818.58 1.30447 1.0360e-02
1810.86 1.30245 1.0820e-02
1803.15 1.30026 1.1390e-02
1795.43 1.29798 1.2090e-02
1787.72 1.29550 1.2940e-02
1780.01 1.29290 1.3970e-02
1772.29 1.29007 1.5210e-02
1764.58 1.28705 1.6740e-02
1756.86 1.28380 1.8620e-02
1749.15 1.28032 2.0910e-02
1741.44 1.27652 2.3770e-02
1733.72 1.27248 2.7460e-02
1726.01 1.26828 3.2340e-02
1718.29 1.26449 3.8670e-02
1710.58 1.26160 4.6480e-02
1702.86 1.26022 5.5520e-02
1695.15 1.26080 6.5300e-02
1687.44 1.26351 7.5230e-02
1679.72 1.26834 8.4810e-02
1672.01 1.27525 9.3580e-02
1664.30 1.28418 1.0099e-01
1656.58 1.29494 1.0638e-01
1648.87 1.30687 1.0907e-01
1641.15 1.31907 1.0867e-01
1633.44 1.33048 1.0522e-01
1625.73 1.34015 9.9240e-02
1618.01 1.34740 9.1540e-02
1610.30 1.35219 8.3000e-02
1602.58 1.35432 7.4460e-02
1594.87 1.35437 6.6650e-02
1587.16 1.35270 6.0120e-02
1579.44 1.35014 5.5140e-02
1571.73 1.34720 5.1640e-02
1564.01 1.34455 4.9310e-02
1556.30 1.34228 4.7720e-02
1548.58 1.34046 4.6500e-02
1540.87 1.33889 4.5470e-02
1533.16 1.33748 4.4550e-02
1525.44 1.33613 4.3780e-02
1517.73 1.33493 4.3150e-02
1510.02 1.33378 4.2610e-02
1502.30 1.33280 4.2110e-02
1494.59 1.33175 4.1660e-02
1486.87 1.33083 4.1290e-02
1479.16 1.32989 4.0980e-02
1471.45 1.32912 4.0670e-02
1463.73 1.32828 4.0350e-02
1456.02 1.32750 4.0050e-02
1448.30 1.32667 3.9770e-02
1440.59 1.32593 3.9490e-02
1432.88 1.32508 3.9220e-02
1425.16 1.32428 3.9000e-02
1417.45 1.32343 3.8830e-02
1409.73 1.32273 3.8660e-02
1402.02 1.32195 3.8440e-02
1394.31 1.32124 3.8140e-02
1386.59 1.32032 3.7790e-02
1378.88 1.31934 3.7490e-02
1371.16 1.31817 3.7310e-02
1363.45 1.31705 3.7310e-02
1355.74 1.31593 3.7470e-02
1348.02 1.31503 3.7720e-02
1340.31 1.31422 3.7950e-02
1332.59 1.31360 3.8070e-02
1324.88 1.31288 3.8040e-02
1317.17 1.31221 3.7890e-02
1309.45 1.31131 3.7680e-02
1301.74 1.31038 3.7490e-02
1294.02 1.30928 3.7350e-02
1286.31 1.30823 3.7270e-02
1278.60 1.30707 3.7220e-02
1270.88 1.30598 3.7200e-02
1263.17 1.30476 3.7200e-02
1255.45 1.30363 3.7230e-02
1247.74 1.30240 3.7270e-02
1240.03 1.30125 3.7300e-02
1232.31 1.29997 3.7320e-02
1224.60 1.29875 3.7320e-02
1216.88 1.29738 3.7310e-02
1209.17 1.29603 3.7300e-02
1201.46 1.29452 3.7300e-02
1193.74 1.29306 3.7290e-02
1186.03 1.29137 3.7310e-02
1178.31 1.28974 3.7360e-02
1170.60 1.28790 3.7480e-02
1162.89 1.28615 3.7640e-02
1155.17 1.28425 3.7820e-02
1147.46 1.28242 3.8000e-02
1139.74 1.28038 3.8180e-02
1132.03 1.27839 3.8370e-02
1124.32 1.27616 3.8560e-02
1116.60 1.27394 3.8760e-02
1108.89 1.27144 3.9000e-02
1101.17 1.26892 3.9310e-02
